        Tracepoints 
                      Tracepoint Locations 
Spike tip         x =     18.000   y =      2.000 

                        Joint a               Joint b             Spike tip       
Input (deg)          ax        ay          bx         by        X          Y     
 8.081,             9.728,      1.937,      8.700,      5.000,     18.000,      2.000
 8.435,             9.723,      1.969,      8.680,      5.027,     17.995,      2.074
 8.789,             9.718,      2.002,      8.659,      5.054,     17.989,      2.148
 9.142,             9.713,      2.034,      8.639,      5.081,     17.983,      2.222
 9.496,             9.708,      2.066,      8.618,      5.108,     17.977,      2.296
 9.850,             9.703,      2.099,      8.598,      5.135,     17.970,      2.369
10.203,             9.697,      2.131,      8.577,      5.162,     17.963,      2.443
10.557,             9.691,      2.163,      8.556,      5.188,     17.956,      2.516
10.911,             9.685,      2.195,      8.535,      5.215,     17.948,      2.589
11.264,             9.679,      2.227,      8.514,      5.241,     17.939,      2.661
11.618,             9.672,      2.259,      8.493,      5.267,     17.931,      2.734
11.972,             9.665,      2.291,      8.472,      5.294,     17.922,      2.806
12.325,             9.658,      2.323,      8.450,      5.320,     17.912,      2.878
12.679,             9.651,      2.355,      8.429,      5.346,     17.902,      2.949
13.033,             9.644,      2.387,      8.407,      5.372,     17.892,      3.021
13.386,             9.637,      2.419,      8.385,      5.398,     17.881,      3.092
13.740,             9.629,      2.451,      8.364,      5.424,     17.870,      3.163
14.094,             9.621,      2.483,      8.342,      5.449,     17.859,      3.234
14.447,             9.613,      2.514,      8.320,      5.475,     17.847,      3.304
14.801,             9.605,      2.546,      8.298,      5.501,     17.835,      3.375
15.155,             9.596,      2.578,      8.275,      5.526,     17.823,      3.445
15.508,             9.588,      2.609,      8.253,      5.552,     17.810,      3.515
15.862,             9.579,      2.641,      8.230,      5.577,     17.797,      3.584
16.216,             9.570,      2.672,      8.208,      5.602,     17.784,      3.653
16.569,             9.561,      2.704,      8.185,      5.627,     17.770,      3.723
16.923,             9.551,      2.735,      8.162,      5.652,     17.756,      3.791
17.277,             9.541,      2.766,      8.140,      5.677,     17.741,      3.860
17.630,             9.532,      2.797,      8.117,      5.702,     17.726,      3.928
17.984,             9.522,      2.829,      8.094,      5.727,     17.711,      3.996
18.338,             9.511,      2.860,      8.070,      5.751,     17.696,      4.064
18.691,             9.501,      2.891,      8.047,      5.776,     17.680,      4.132
19.045,             9.490,      2.922,      8.024,      5.800,     17.663,      4.199
19.399,             9.480,      2.952,      8.000,      5.825,     17.647,      4.266
19.752,             9.469,      2.983,      7.977,      5.849,     17.630,      4.333
20.106,             9.458,      3.014,      7.953,      5.873,     17.613,      4.399
20.460,             9.446,      3.045,      7.929,      5.897,     17.596,      4.466
20.813,             9.435,      3.075,      7.905,      5.921,     17.578,      4.532
21.167,             9.423,      3.106,      7.881,      5.945,     17.560,      4.597
21.521,             9.411,      3.136,      7.857,      5.969,     17.541,      4.663
21.874,             9.399,      3.167,      7.833,      5.993,     17.523,      4.728
22.228,             9.387,      3.197,      7.808,      6.016,     17.504,      4.793
22.582,             9.374,      3.227,      7.784,      6.040,     17.484,      4.858
22.935,             9.362,      3.258,      7.760,      6.063,     17.465,      4.922
23.289,             9.349,      3.288,      7.735,      6.087,     17.445,      4.986
23.643,             9.336,      3.318,      7.710,      6.110,     17.424,      5.050
23.996,             9.322,      3.348,      7.685,      6.133,     17.404,      5.114
24.350,             9.309,      3.377,      7.660,      6.156,     17.383,      5.177
24.704,             9.295,      3.407,      7.635,      6.179,     17.362,      5.240
25.057,             9.282,      3.437,      7.610,      6.202,     17.341,      5.303
25.411,             9.268,      3.467,      7.585,      6.225,     17.319,      5.365
25.765,             9.254,      3.496,      7.560,      6.247,     17.297,      5.428
26.118,             9.239,      3.525,      7.534,      6.270,     17.275,      5.489
26.472,             9.225,      3.555,      7.509,      6.292,     17.253,      5.551
26.826,             9.210,      3.584,      7.483,      6.315,     17.230,      5.612
27.179,             9.195,      3.613,      7.458,      6.337,     17.207,      5.673
27.533,             9.180,      3.642,      7.432,      6.359,     17.184,      5.734
27.887,             9.165,      3.671,      7.406,      6.381,     17.160,      5.795
28.240,             9.150,      3.700,      7.380,      6.403,     17.136,      5.855
28.594,             9.134,      3.729,      7.354,      6.425,     17.112,      5.915
28.948,             9.118,      3.758,      7.327,      6.447,     17.088,      5.974
29.301,             9.102,      3.786,      7.301,      6.468,     17.063,      6.034
29.655,             9.086,      3.815,      7.275,      6.490,     17.039,      6.093
30.009,             9.070,      3.843,      7.248,      6.511,     17.014,      6.152
30.362,             9.054,      3.871,      7.222,      6.533,     16.988,      6.210
30.716,             9.037,      3.899,      7.195,      6.554,     16.963,      6.268
31.070,             9.020,      3.928,      7.168,      6.575,     16.937,      6.326
31.423,             9.003,      3.956,      7.141,      6.596,     16.911,      6.384
31.777,             8.986,      3.983,      7.114,      6.617,     16.885,      6.441
32.131,             8.969,      4.011,      7.087,      6.638,     16.858,      6.498
32.484,             8.951,      4.039,      7.060,      6.659,     16.832,      6.555
32.838,             8.934,      4.066,      7.033,      6.679,     16.805,      6.611
33.192,             8.916,      4.094,      7.006,      6.700,     16.778,      6.667
33.545,             8.898,      4.121,      6.978,      6.720,     16.750,      6.723
33.899,             8.880,      4.148,      6.951,      6.740,     16.723,      6.778
34.253,             8.861,      4.175,      6.923,      6.761,     16.695,      6.834
34.606,             8.843,      4.202,      6.895,      6.781,     16.667,      6.889
34.960,             8.824,      4.229,      6.868,      6.801,     16.638,      6.943
35.314,             8.805,      4.256,      6.840,      6.820,     16.610,      6.997
35.667,             8.786,      4.283,      6.812,      6.840,     16.581,      7.051
36.021,             8.767,      4.309,      6.784,      6.860,     16.553,      7.105
36.375,             8.748,      4.336,      6.756,      6.879,     16.523,      7.158
36.728,             8.728,      4.362,      6.727,      6.899,     16.494,      7.212
37.082,             8.709,      4.388,      6.699,      6.918,     16.465,      7.264
37.436,             8.689,      4.414,      6.671,      6.937,     16.435,      7.317
37.790,             8.669,      4.440,      6.642,      6.956,     16.405,      7.369
38.143,             8.649,      4.466,      6.613,      6.975,     16.375,      7.421
38.497,             8.628,      4.492,      6.585,      6.994,     16.345,      7.472
38.851,             8.608,      4.517,      6.556,      7.013,     16.315,      7.523
39.204,             8.587,      4.543,      6.527,      7.031,     16.284,      7.574
39.558,             8.567,      4.568,      6.498,      7.050,     16.253,      7.625
39.912,             8.546,      4.593,      6.469,      7.068,     16.222,      7.675
40.265,             8.525,      4.618,      6.440,      7.087,     16.191,      7.725
40.619,             8.503,      4.643,      6.411,      7.105,     16.160,      7.775
40.973,             8.482,      4.668,      6.382,      7.123,     16.128,      7.824
41.326,             8.460,      4.692,      6.352,      7.141,     16.097,      7.873
41.680,             8.439,      4.717,      6.323,      7.158,     16.065,      7.922
42.034,             8.417,      4.741,      6.293,      7.176,     16.033,      7.970
42.387,             8.395,      4.765,      6.264,      7.194,     16.001,      8.018
42.741,             8.373,      4.790,      6.234,      7.211,     15.968,      8.066
43.095,             8.351,      4.813,      6.204,      7.228,     15.936,      8.114
43.448,             8.328,      4.837,      6.174,      7.246,     15.903,      8.161
43.802,             8.306,      4.861,      6.145,      7.263,     15.871,      8.208
44.156,             8.283,      4.885,      6.115,      7.280,     15.838,      8.254
44.509,             8.260,      4.908,      6.084,      7.297,     15.805,      8.300
44.863,             8.237,      4.931,      6.054,      7.313,     15.771,      8.346
45.217,             8.214,      4.954,      6.024,      7.330,     15.738,      8.392
45.570,             8.191,      4.977,      5.994,      7.346,     15.705,      8.437
45.924,             8.167,      5.000,      5.963,      7.363,     15.671,      8.482
46.278,             8.143,      5.023,      5.933,      7.379,     15.637,      8.526
46.631,             8.120,      5.045,      5.902,      7.395,     15.603,      8.571
46.985,             8.096,      5.068,      5.872,      7.411,     15.569,      8.615
47.339,             8.072,      5.090,      5.841,      7.427,     15.535,      8.658
47.692,             8.048,      5.112,      5.810,      7.443,     15.501,      8.702
48.046,             8.024,      5.134,      5.779,      7.458,     15.466,      8.745
48.400,             7.999,      5.156,      5.748,      7.474,     15.432,      8.787
48.753,             7.975,      5.178,      5.717,      7.489,     15.397,      8.830
49.107,             7.950,      5.199,      5.686,      7.505,     15.362,      8.872
49.461,             7.925,      5.220,      5.655,      7.520,     15.327,      8.913
49.814,             7.900,      5.242,      5.624,      7.535,     15.292,      8.955
50.168,             7.875,      5.263,      5.593,      7.550,     15.257,      8.996
50.522,             7.850,      5.283,      5.561,      7.564,     15.222,      9.036
50.875,             7.825,      5.304,      5.530,      7.579,     15.186,      9.077
51.229,             7.799,      5.325,      5.499,      7.593,     15.151,      9.117
51.583,             7.774,      5.345,      5.467,      7.608,     15.115,      9.157
51.936,             7.748,      5.365,      5.435,      7.622,     15.080,      9.196
52.290,             7.722,      5.386,      5.404,      7.636,     15.044,      9.235
52.644,             7.696,      5.405,      5.372,      7.650,     15.008,      9.274
52.997,             7.670,      5.425,      5.340,      7.664,     14.972,      9.312
53.351,             7.644,      5.445,      5.308,      7.677,     14.936,      9.350
53.705,             7.618,      5.464,      5.277,      7.691,     14.900,      9.388
54.058,             7.591,      5.484,      5.245,      7.704,     14.864,      9.426
54.412,             7.565,      5.503,      5.212,      7.718,     14.827,      9.463
54.766,             7.538,      5.522,      5.180,      7.731,     14.791,      9.500
55.119,             7.511,      5.540,      5.148,      7.744,     14.754,      9.536
55.473,             7.484,      5.559,      5.116,      7.757,     14.718,      9.572
55.827,             7.457,      5.578,      5.084,      7.770,     14.681,      9.608
56.180,             7.430,      5.596,      5.051,      7.782,     14.644,      9.644
56.534,             7.403,      5.614,      5.019,      7.795,     14.608,      9.679
56.888,             7.375,      5.632,      4.986,      7.807,     14.571,      9.714
57.241,             7.348,      5.650,      4.954,      7.819,     14.534,      9.748
57.595,             7.320,      5.667,      4.921,      7.832,     14.497,      9.782
57.949,             7.293,      5.685,      4.889,      7.843,     14.460,      9.816
58.302,             7.265,      5.702,      4.856,      7.855,     14.422,      9.850
58.656,             7.237,      5.719,      4.823,      7.867,     14.385,      9.883
59.010,             7.209,      5.736,      4.791,      7.879,     14.348,      9.916
59.363,             7.181,      5.753,      4.758,      7.890,     14.310,      9.948
59.717,             7.153,      5.769,      4.725,      7.901,     14.273,      9.980
60.071,             7.124,      5.786,      4.692,      7.912,     14.236,     10.012
60.424,             7.096,      5.802,      4.659,      7.923,     14.198,     10.044
60.778,             7.068,      5.818,      4.626,      7.934,     14.161,     10.075
61.132,             7.039,      5.834,      4.593,      7.945,     14.123,     10.106
61.485,             7.010,      5.850,      4.560,      7.956,     14.085,     10.136
61.839,             6.981,      5.865,      4.527,      7.966,     14.048,     10.166
62.193,             6.953,      5.881,      4.493,      7.976,     14.010,     10.196
62.546,             6.924,      5.896,      4.460,      7.986,     13.972,     10.226
62.900,             6.894,      5.911,      4.427,      7.997,     13.934,     10.255
63.254,             6.865,      5.926,      4.394,      8.006,     13.896,     10.284
63.607,             6.836,      5.940,      4.360,      8.016,     13.859,     10.312
63.961,             6.807,      5.955,      4.327,      8.026,     13.821,     10.341
64.315,             6.777,      5.969,      4.293,      8.035,     13.783,     10.368
64.668,             6.748,      5.983,      4.260,      8.045,     13.745,     10.396
65.022,             6.718,      5.997,      4.226,      8.054,     13.707,     10.423
65.376,             6.688,      6.011,      4.193,      8.063,     13.669,     10.450
65.729,             6.659,      6.024,      4.159,      8.072,     13.631,     10.476
66.083,             6.629,      6.038,      4.126,      8.080,     13.593,     10.503
66.437,             6.599,      6.051,      4.092,      8.089,     13.554,     10.528
66.790,             6.569,      6.064,      4.058,      8.098,     13.516,     10.554
67.144,             6.539,      6.077,      4.024,      8.106,     13.478,     10.579
67.498,             6.508,      6.089,      3.991,      8.114,     13.440,     10.604
67.852,             6.478,      6.102,      3.957,      8.122,     13.402,     10.628
68.205,             6.448,      6.114,      3.923,      8.130,     13.364,     10.652
68.559,             6.417,      6.126,      3.889,      8.138,     13.326,     10.676
68.913,             6.387,      6.138,      3.855,      8.145,     13.288,     10.700
69.266,             6.356,      6.150,      3.821,      8.153,     13.249,     10.723
69.620,             6.326,      6.161,      3.788,      8.160,     13.211,     10.746
69.974,             6.295,      6.172,      3.754,      8.167,     13.173,     10.768
70.327,             6.264,      6.183,      3.720,      8.174,     13.135,     10.790
70.681,             6.233,      6.194,      3.686,      8.181,     13.097,     10.812
71.035,             6.202,      6.205,      3.652,      8.188,     13.059,     10.833
71.388,             6.171,      6.216,      3.618,      8.195,     13.021,     10.854
71.742,             6.140,      6.226,      3.584,      8.201,     12.982,     10.875
72.096,             6.109,      6.236,      3.550,      8.207,     12.944,     10.896
72.449,             6.078,      6.246,      3.515,      8.214,     12.906,     10.916
72.803,             6.047,      6.256,      3.481,      8.220,     12.868,     10.935
73.157,             6.016,      6.265,      3.447,      8.226,     12.830,     10.955
73.510,             5.984,      6.275,      3.413,      8.231,     12.792,     10.974
73.864,             5.953,      6.284,      3.379,      8.237,     12.754,     10.993
74.218,             5.921,      6.293,      3.345,      8.242,     12.716,     11.011
74.571,             5.890,      6.302,      3.311,      8.248,     12.678,     11.029
74.925,             5.858,      6.310,      3.277,      8.253,     12.641,     11.047
75.279,             5.827,      6.319,      3.242,      8.258,     12.603,     11.064
75.632,             5.795,      6.327,      3.208,      8.263,     12.565,     11.081
75.986,             5.763,      6.335,      3.174,      8.267,     12.527,     11.098
76.340,             5.732,      6.343,      3.140,      8.272,     12.489,     11.114
76.693,             5.700,      6.351,      3.106,      8.276,     12.452,     11.130
77.047,             5.668,      6.358,      3.071,      8.281,     12.414,     11.145
77.401,             5.636,      6.365,      3.037,      8.285,     12.376,     11.161
77.754,             5.604,      6.372,      3.003,      8.289,     12.339,     11.175
78.108,             5.572,      6.379,      2.969,      8.293,     12.301,     11.190
78.462,             5.540,      6.386,      2.935,      8.297,     12.264,     11.204
78.815,             5.508,      6.392,      2.900,      8.300,     12.227,     11.218
79.169,             5.476,      6.398,      2.866,      8.304,     12.189,     11.232
79.523,             5.444,      6.404,      2.832,      8.307,     12.152,     11.245
79.876,             5.411,      6.410,      2.798,      8.310,     12.115,     11.258
80.230,             5.379,      6.416,      2.764,      8.313,     12.078,     11.270
80.584,             5.347,      6.421,      2.730,      8.316,     12.040,     11.282
80.937,             5.315,      6.427,      2.696,      8.319,     12.003,     11.294
81.291,             5.282,      6.432,      2.661,      8.321,     11.966,     11.305
81.645,             5.250,      6.437,      2.627,      8.324,     11.930,     11.316
81.998,             5.218,      6.441,      2.593,      8.326,     11.893,     11.327
82.352,             5.185,      6.446,      2.559,      8.328,     11.856,     11.337
82.706,             5.153,      6.450,      2.525,      8.330,     11.819,     11.347
83.059,             5.120,      6.454,      2.491,      8.332,     11.783,     11.357
83.413,             5.088,      6.458,      2.457,      8.334,     11.746,     11.366
83.767,             5.055,      6.462,      2.423,      8.335,     11.710,     11.375
84.120,             5.023,      6.465,      2.389,      8.337,     11.674,     11.384
84.474,             4.990,      6.468,      2.355,      8.338,     11.637,     11.392
84.828,             4.957,      6.471,      2.321,      8.339,     11.601,     11.400
85.181,             4.925,      6.474,      2.287,      8.340,     11.565,     11.407
85.535,             4.892,      6.477,      2.253,      8.341,     11.529,     11.414
85.889,             4.860,      6.479,      2.220,      8.342,     11.494,     11.421
86.242,             4.827,      6.481,      2.186,      8.342,     11.458,     11.427
86.596,             4.794,      6.483,      2.152,      8.343,     11.422,     11.433
86.950,             4.762,      6.485,      2.118,      8.343,     11.387,     11.439
87.303,             4.729,      6.487,      2.084,      8.343,     11.351,     11.444
87.657,             4.696,      6.488,      2.051,      8.343,     11.316,     11.449
88.011,             4.664,      6.490,      2.017,      8.343,     11.281,     11.454
88.364,             4.631,      6.491,      1.984,      8.343,     11.246,     11.458
88.718,             4.598,      6.492,      1.950,      8.342,     11.211,     11.462
89.072,             4.565,      6.492,      1.917,      8.342,     11.176,     11.465
89.425,             4.533,      6.493,      1.883,      8.341,     11.141,     11.469
89.779,             4.500,      6.493,      1.850,      8.341,     11.106,     11.471
90.133,             4.467,      6.493,      1.816,      8.340,     11.072,     11.474
90.486,             4.435,      6.493,      1.783,      8.339,     11.038,     11.476
90.840,             4.402,      6.492,      1.750,      8.337,     11.003,     11.477
91.194,             4.369,      6.492,      1.716,      8.336,     10.969,     11.478
91.547,             4.336,      6.491,      1.683,      8.335,     10.935,     11.479
91.901,             4.304,      6.490,      1.650,      8.333,     10.902,     11.480
92.255,             4.271,      6.489,      1.617,      8.331,     10.868,     11.480
92.608,             4.238,      6.487,      1.584,      8.330,     10.834,     11.479
92.962,             4.206,      6.486,      1.551,      8.328,     10.801,     11.479
93.316,             4.173,      6.484,      1.518,      8.326,     10.768,     11.478
93.669,             4.140,      6.482,      1.486,      8.323,     10.735,     11.476
94.023,             4.108,      6.480,      1.453,      8.321,     10.702,     11.474
94.377,             4.075,      6.477,      1.420,      8.319,     10.669,     11.472
94.730,             4.042,      6.475,      1.387,      8.316,     10.637,     11.470
95.084,             4.010,      6.472,      1.355,      8.313,     10.604,     11.467
95.438,             3.977,      6.469,      1.322,      8.310,     10.572,     11.463
95.791,             3.945,      6.466,      1.290,      8.307,     10.540,     11.459
96.145,             3.912,      6.462,      1.258,      8.304,     10.508,     11.455
96.499,             3.880,      6.459,      1.226,      8.301,     10.476,     11.451
96.852,             3.847,      6.455,      1.193,      8.298,     10.444,     11.445
97.206,             3.815,      6.451,      1.161,      8.294,     10.413,     11.440
97.560,             3.782,      6.447,      1.129,      8.291,     10.382,     11.434
97.914,             3.750,      6.442,      1.097,      8.287,     10.351,     11.428
98.267,             3.717,      6.438,      1.066,      8.283,     10.320,     11.421
98.621,             3.685,      6.433,      1.034,      8.280,     10.289,     11.414
98.975,             3.653,      6.428,      1.002,      8.276,     10.259,     11.407
99.328,             3.620,      6.423,      0.971,      8.271,     10.229,     11.399
99.682,             3.588,      6.417,      0.939,      8.267,     10.198,     11.391
100.036,             3.556,      6.412,      0.908,      8.263,     10.169,     11.382
100.389,             3.524,      6.406,      0.877,      8.258,     10.139,     11.373
100.743,             3.491,      6.400,      0.845,      8.254,     10.109,     11.363
101.097,             3.459,      6.394,      0.814,      8.249,     10.080,     11.353
101.450,             3.427,      6.387,      0.783,      8.244,     10.051,     11.342
101.804,             3.395,      6.381,      0.753,      8.240,     10.022,     11.332
102.158,             3.363,      6.374,      0.722,      8.235,      9.994,     11.320
102.511,             3.331,      6.367,      0.691,      8.230,      9.965,     11.308
102.865,             3.299,      6.360,      0.661,      8.224,      9.937,     11.296
103.219,             3.267,      6.352,      0.630,      8.219,      9.909,     11.283
103.572,             3.236,      6.345,      0.600,      8.214,      9.882,     11.270
103.926,             3.204,      6.337,      0.570,      8.208,      9.854,     11.257
104.280,             3.172,      6.329,      0.540,      8.203,      9.827,     11.242
104.633,             3.140,      6.321,      0.510,      8.197,      9.800,     11.228
104.987,             3.109,      6.313,      0.480,      8.191,      9.773,     11.213
105.341,             3.077,      6.304,      0.451,      8.186,      9.747,     11.197
105.694,             3.046,      6.295,      0.421,      8.180,      9.721,     11.181
106.048,             3.014,      6.286,      0.392,      8.174,      9.695,     11.165
106.402,             2.983,      6.277,      0.363,      8.168,      9.669,     11.148
106.755,             2.951,      6.268,      0.334,      8.161,      9.644,     11.130
107.109,             2.920,      6.258,      0.305,      8.155,      9.619,     11.112
107.463,             2.889,      6.249,      0.276,      8.149,      9.594,     11.094
107.816,             2.858,      6.239,      0.247,      8.143,      9.569,     11.075
108.170,             2.827,      6.229,      0.219,      8.136,      9.545,     11.055
108.524,             2.795,      6.218,      0.191,      8.130,      9.521,     11.035
108.877,             2.764,      6.208,      0.163,      8.123,      9.497,     11.014
109.231,             2.734,      6.197,      0.135,      8.116,      9.474,     10.993
109.585,             2.703,      6.186,      0.107,      8.110,      9.450,     10.971
109.938,             2.672,      6.175,      0.079,      8.103,      9.428,     10.949
110.292,             2.641,      6.164,      0.052,      8.096,      9.405,     10.926
110.646,             2.611,      6.152,      0.025,      8.089,      9.383,     10.903
110.999,             2.580,      6.141,     -0.002,      8.082,      9.361,     10.879
111.353,             2.549,      6.129,     -0.029,      8.076,      9.339,     10.854
111.707,             2.519,      6.117,     -0.056,      8.069,      9.318,     10.829
112.060,             2.489,      6.105,     -0.082,      8.062,      9.297,     10.803
112.414,             2.458,      6.092,     -0.109,      8.054,      9.276,     10.777
112.768,             2.428,      6.080,     -0.135,      8.047,      9.256,     10.750
113.121,             2.398,      6.067,     -0.160,      8.040,      9.236,     10.722
113.475,             2.368,      6.054,     -0.186,      8.033,      9.217,     10.693
113.829,             2.338,      6.041,     -0.211,      8.026,      9.198,     10.664
114.182,             2.308,      6.028,     -0.237,      8.019,      9.179,     10.635
114.536,             2.278,      6.014,     -0.261,      8.011,      9.160,     10.604
114.890,             2.249,      6.000,     -0.286,      8.004,      9.142,     10.573
115.243,             2.219,      5.987,     -0.310,      7.997,      9.124,     10.541
115.597,             2.189,      5.973,     -0.335,      7.990,      9.107,     10.508
115.951,             2.160,      5.958,     -0.358,      7.982,      9.090,     10.475
116.304,             2.130,      5.944,     -0.382,      7.975,      9.074,     10.441
116.658,             2.101,      5.929,     -0.405,      7.968,      9.057,     10.406
117.012,             2.072,      5.915,     -0.428,      7.961,      9.042,     10.370
117.365,             2.043,      5.900,     -0.451,      7.953,      9.026,     10.334
117.719,             2.014,      5.884,     -0.474,      7.946,      9.012,     10.296
118.073,             1.985,      5.869,     -0.496,      7.939,      8.997,     10.258
118.426,             1.956,      5.854,     -0.518,      7.932,      8.983,     10.219
118.780,             1.927,      5.838,     -0.539,      7.925,      8.969,     10.179
119.134,             1.899,      5.822,     -0.560,      7.918,      8.956,     10.137
119.487,             1.870,      5.806,     -0.581,      7.911,      8.944,     10.095
119.841,             1.842,      5.790,     -0.601,      7.904,      8.931,     10.052
120.195,             1.813,      5.774,     -0.621,      7.897,      8.920,     10.008
120.548,             1.785,      5.757,     -0.641,      7.890,      8.908,      9.963
120.902,             1.757,      5.740,     -0.660,      7.884,      8.898,      9.917
121.256,             1.729,      5.723,     -0.679,      7.877,      8.887,      9.869
121.609,             1.701,      5.706,     -0.698,      7.871,      8.878,      9.821
121.963,             1.673,      5.689,     -0.716,      7.864,      8.868,      9.771
122.317,             1.646,      5.672,     -0.733,      7.858,      8.860,      9.720
122.670,             1.618,      5.654,     -0.750,      7.852,      8.852,      9.667
123.024,             1.591,      5.636,     -0.767,      7.846,      8.844,      9.613
123.378,             1.563,      5.618,     -0.783,      7.840,      8.837,      9.558
123.731,             1.536,      5.600,     -0.798,      7.834,      8.831,      9.501
124.085,             1.509,      5.582,     -0.813,      7.829,      8.825,      9.443
124.439,             1.482,      5.564,     -0.827,      7.824,      8.819,      9.383
124.792,             1.455,      5.545,     -0.841,      7.819,      8.815,      9.321
125.146,             1.428,      5.526,     -0.854,      7.814,      8.811,      9.258
125.500,             1.401,      5.507,     -0.866,      7.809,      8.807,      9.193
125.853,             1.375,      5.488,     -0.878,      7.805,      8.805,      9.125
126.207,             1.348,      5.469,     -0.888,      7.801,      8.802,      9.056
126.561,             1.322,      5.450,     -0.898,      7.797,      8.801,      8.984
126.914,             1.296,      5.430,     -0.908,      7.793,      8.800,      8.910
127.268,             1.270,      5.410,     -0.916,      7.790,      8.800,      8.833
127.622,             1.244,      5.391,     -0.923,      7.787,      8.801,      8.754
127.976,             1.218,      5.370,     -0.929,      7.785,      8.803,      8.672
128.329,             1.192,      5.350,     -0.934,      7.783,      8.805,      8.587
128.683,             1.166,      5.330,     -0.938,      7.782,      8.808,      8.498
129.037,             1.141,      5.309,     -0.940,      7.781,      8.812,      8.406
129.390,             1.116,      5.289,     -0.941,      7.780,      8.816,      8.310
129.744,             1.090,      5.268,     -0.941,      7.781,      8.822,      8.210
130.098,             1.065,      5.247,     -0.938,      7.781,      8.828,      8.105
130.451,             1.040,      5.226,     -0.934,      7.783,      8.835,      7.994
130.805,             1.015,      5.204,     -0.928,      7.785,      8.844,      7.878
131.159,             0.991,      5.183,     -0.919,      7.789,      8.853,      7.756
131.512,             0.966,      5.161,     -0.908,      7.793,      8.863,      7.626
131.866,             0.942,      5.140,     -0.893,      7.799,      8.874,      7.487
132.220,             0.917,      5.118,     -0.875,      7.806,      8.886,      7.339
132.573,             0.893,      5.096,     -0.852,      7.814,      8.899,      7.179
132.927,             0.869,      5.073,     -0.824,      7.825,      8.913,      7.004
133.281,             0.845,      5.051,     -0.790,      7.837,      8.928,      6.812
133.634,             0.822,      5.028,     -0.747,      7.853,      8.944,      6.596
133.988,             0.798,      5.006,     -0.692,      7.873,      8.961,      6.348
134.342,             0.775,      4.983,     -0.618,      7.898,      8.977,      6.052
134.695,             0.751,      4.960,     -0.512,      7.934,      8.993,      5.666
135.049,             0.728,      4.937,     -0.300,      8.000,      9.000,      5.000